onset	duration	reaction_time	percent_off_trial	trial_type	immediate_amount	delayed_amount	delay_time_words	delay_time_days	k_this_trial	response_button	response_binarized	onset.plus.rt	onset.plus.stimdur	absolute_time	trialnum	onset_orig	duration_orig	trial_type_orig	easy_par_orig	hard_par_orig
 16.01	4.5	2.9450	-0.05	hard_par	10	13.468	1 year	365	0.00095	y	1	 18.96	 20.53	0	1	16.013	4.5	hard_par	n/a	0.4167
 21.26	4.5	1.6338	 1.90	easy_par	10	20.585	1 year	365	0.00290	y	1	 22.89	 25.77	5.25	2	21.2572	4.5	easy_par	0.6458	n/a
 26.50	4.5	1.8207	 0.05	hard_par	5	 5.011	2 days	2	0.00105	y	1	 28.32	 31.02	10.5	3	26.5014	4.5	hard_par	n/a	0.4167
 37.01	4.5	1.5364	-0.99	easy_par	5	 5.006	4 months	120	0.00001	b	0	 38.54	 41.52	21	5	37.0065	4.5	easy_par	-0.3542	n/a
 42.25	4.5	2.2356	-0.99	easy_par	10	10.000	2 days	2	0.00001	b	0	 44.49	 46.76	26.25	6	42.2509	4.5	easy_par	-0.3542	n/a
 47.51	4.5	1.4710	 0.01	hard_par	10	10.071	1 week	7	0.00101	y	1	 48.98	 52.03	31.5	7	47.5119	4.5	hard_par	n/a	0.4167
 52.76	4.5	1.3633	 2.00	easy_par	5	10.475	1 year	365	0.00300	y	1	 54.12	 57.27	36.75	8	52.756	4.5	easy_par	0.6458	n/a
 58.02	4.5	1.6895	 1.90	easy_par	5	 5.870	2 months	60	0.00290	y	1	 59.71	 62.53	42	9	58.0169	4.5	easy_par	0.6458	n/a
 63.26	4.5	1.9860	 0.05	hard_par	5	 5.315	2 months	60	0.00105	y	1	 65.25	 67.78	47.25	10	63.2612	4.5	hard_par	n/a	0.4167
 68.51	4.5	1.5107	-0.99	easy_par	5	 5.000	2 days	2	0.00001	b	0	 70.02	 73.02	52.5	11	68.5054	4.5	easy_par	-0.3542	n/a
 73.77	4.5	1.3620	-0.95	easy_par	10	10.060	4 months	120	0.00005	b	0	 75.13	 78.28	57.75	12	73.7662	4.5	easy_par	-0.3542	n/a
 79.01	4.5	1.2542	 1.90	easy_par	10	13.480	4 months	120	0.00290	y	1	 80.26	 83.52	63	13	79.0106	4.5	easy_par	0.6458	n/a
 84.25	4.5	1.9760	 0.05	hard_par	10	10.220	3 weeks	21	0.00105	b	0	 86.23	 88.77	68.25	14	84.2548	4.5	hard_par	n/a	-0.5833
 89.52	4.5	1.1267	 1.90	easy_par	5	 6.740	4 months	120	0.00290	y	1	 90.64	 94.03	73.5	15	89.5157	4.5	easy_par	0.6458	n/a
 94.76	4.5	1.2249	-0.05	hard_par	5	 5.285	2 months	60	0.00095	y	1	 95.98	 99.27	78.75	16	94.76	4.5	hard_par	n/a	0.4167
100.00	4.5	1.1945	 1.90	easy_par	5	10.293	1 year	365	0.00290	y	1	101.20	104.52	84	17	100.0043	4.5	easy_par	0.6458	n/a
110.51	4.5	1.5236	 0.01	hard_par	5	 5.106	3 weeks	21	0.00101	b	0	112.03	115.02	94.5	19	110.5094	4.5	hard_par	n/a	-0.5833
115.75	4.5	1.3577	-0.05	hard_par	5	 5.033	1 week	7	0.00095	b	0	117.11	120.27	99.75	20	115.7536	4.5	hard_par	n/a	-0.5833
121.01	4.5	1.7048	 2.00	easy_par	5	 5.900	2 months	60	0.00300	b	0	122.72	125.53	105	21	121.0144	4.5	easy_par	-0.3542	n/a
126.26	4.5	1.2945	-0.99	easy_par	10	10.012	4 months	120	0.00001	b	0	127.55	130.77	110.25	22	126.2588	4.5	easy_par	-0.3542	n/a
131.50	4.5	1.2968	 0.05	hard_par	10	13.833	1 year	365	0.00105	y	1	132.80	136.02	115.5	23	131.5031	4.5	hard_par	n/a	0.4167
136.76	4.5	1.0266	 0.01	hard_par	5	 5.606	4 months	120	0.00101	y	1	137.79	141.28	120.75	24	136.7639	4.5	hard_par	n/a	0.4167
142.01	4.5	0.9679	 2.00	easy_par	5	 5.105	1 week	7	0.00300	y	1	142.98	146.52	126	25	142.0082	4.5	easy_par	0.6458	n/a
147.25	4.5	1.7618	-0.95	easy_par	5	 5.000	2 days	2	0.00005	b	0	149.01	151.77	131.25	26	147.2524	4.5	easy_par	-0.3542	n/a
152.51	4.5	1.3337	-0.95	easy_par	10	10.011	3 weeks	21	0.00005	b	0	153.85	158.59	136.5	27	152.5133	4.5	easy_par	-0.3542	n/a
158.60	4.5	1.1478	 0.01	hard_par	5	 5.303	2 months	60	0.00101	y	1	159.75	163.12	141.75	28	158.604	4.5	hard_par	n/a	0.4167
163.13	4.5	1.6286	-0.99	easy_par	5	 5.001	3 weeks	21	0.00001	b	0	164.76	167.65	147	29	163.1346	4.5	easy_par	-0.3542	n/a
168.26	4.5	1.2096	-0.95	easy_par	5	 5.005	3 weeks	21	0.00005	b	0	169.47	172.78	152.25	30	168.2628	4.5	easy_par	-0.3542	n/a
173.51	4.5	1.0673	-0.05	hard_par	10	10.019	2 days	2	0.00095	b	0	174.57	178.02	157.5	31	173.5071	4.5	hard_par	n/a	-0.5833
184.01	4.5	2.7160	-0.01	hard_par	5	 5.104	3 weeks	21	0.00099	b	0	186.73	188.53	168	33	184.0122	4.5	hard_par	n/a	-0.5833
189.26	4.5	1.5995	-0.95	easy_par	5	 5.015	2 months	60	0.00005	b	0	190.86	193.77	173.25	34	189.2565	4.5	easy_par	-0.3542	n/a
194.52	4.5	1.2418	-0.99	easy_par	5	 5.003	2 months	60	0.00001	b	0	195.76	199.03	178.5	35	194.5172	4.5	easy_par	-0.3542	n/a
199.76	4.5	1.6955	 1.90	easy_par	5	 5.304	3 weeks	21	0.00290	b	0	201.46	204.28	183.75	36	199.7616	4.5	easy_par	-0.3542	n/a
205.01	4.5	2.0662	-0.01	hard_par	10	11.188	4 months	120	0.00099	y	1	207.07	209.52	189	37	205.0058	4.5	hard_par	n/a	0.4167
210.27	4.5	1.3916	-0.01	hard_par	10	10.069	1 week	7	0.00099	b	0	211.66	214.78	194.25	38	210.2668	4.5	hard_par	n/a	-0.5833
215.51	4.5	1.1699	 1.90	easy_par	10	11.740	2 months	60	0.00290	y	1	216.68	220.03	199.5	39	215.511	4.5	easy_par	0.6458	n/a
220.76	4.5	0.9415	 0.01	hard_par	10	10.020	2 days	2	0.00101	b	0	221.70	225.27	204.75	40	220.7553	4.5	hard_par	n/a	-0.5833
226.02	4.5	2.1510	-0.05	hard_par	5	 5.100	3 weeks	21	0.00095	y	1	228.17	230.53	210	41	226.0161	4.5	hard_par	n/a	0.4167
231.26	4.5	1.0200	-0.95	easy_par	10	10.004	1 week	7	0.00005	b	0	232.28	235.77	215.25	42	231.2604	4.5	easy_par	-0.3542	n/a
236.50	4.5	1.9843	-0.01	hard_par	10	10.594	2 months	60	0.00099	y	1	238.49	241.02	220.5	43	236.5046	4.5	hard_par	n/a	0.4167
241.77	4.5	1.5059	 1.90	easy_par	10	10.609	3 weeks	21	0.00290	y	1	243.27	246.28	225.75	44	241.7656	4.5	easy_par	0.6458	n/a
247.01	4.5	0.9574	-0.99	easy_par	5	 5.000	1 week	7	0.00001	b	0	247.97	251.52	231	45	247.0098	4.5	easy_par	-0.3542	n/a
257.52	4.5	1.4301	 0.01	hard_par	10	11.212	4 months	120	0.00101	y	1	258.95	262.03	241.5	47	257.515	4.5	hard_par	n/a	0.4167
262.76	4.5	1.8433	-0.95	easy_par	10	10.030	2 months	60	0.00005	b	0	264.60	267.27	246.75	48	262.7593	4.5	easy_par	-0.3542	n/a
268.00	4.5	1.3475	-0.99	easy_par	10	10.037	1 year	365	0.00001	b	0	269.35	272.52	252	49	268.0034	4.5	easy_par	-0.3542	n/a
273.26	4.5	1.1460	 2.00	easy_par	10	10.630	3 weeks	21	0.00300	y	1	274.41	277.78	257.25	50	273.2643	4.5	easy_par	0.6458	n/a
278.51	4.5	1.2131	-0.05	hard_par	10	10.199	3 weeks	21	0.00095	y	1	279.72	283.02	262.5	51	278.5087	4.5	hard_par	n/a	0.4167
283.75	4.5	1.2487	 1.90	easy_par	5	 5.029	2 days	2	0.00290	b	0	285.00	288.27	267.75	52	283.7529	4.5	easy_par	-0.3542	n/a
289.01	4.5	1.0509	-0.01	hard_par	5	 5.297	2 months	60	0.00099	y	1	290.06	293.53	273	53	289.0138	4.5	hard_par	n/a	0.4167
294.26	4.5	1.0533	-0.05	hard_par	5	 6.734	1 year	365	0.00095	y	1	295.31	298.77	278.25	54	294.2581	4.5	hard_par	n/a	0.4167
299.50	4.5	1.2046	 0.05	hard_par	10	11.260	4 months	120	0.00105	y	1	300.71	304.02	283.5	55	299.5023	4.5	hard_par	n/a	0.4167
304.76	4.5	1.5819	 2.00	easy_par	10	10.210	1 week	7	0.00300	b	0	306.35	309.28	288.75	56	304.7631	4.5	easy_par	-0.3542	n/a
310.01	4.5	1.4714	 0.05	hard_par	5	 5.630	4 months	120	0.00105	y	1	311.48	314.52	294	57	310.0076	4.5	hard_par	n/a	0.4167
315.25	4.5	1.6111	 2.00	easy_par	5	 6.800	4 months	120	0.00300	y	1	316.86	319.77	299.25	58	315.2517	4.5	easy_par	0.6458	n/a
320.51	4.5	1.1508	-0.99	easy_par	10	10.006	2 months	60	0.00001	b	0	321.66	325.03	304.5	59	320.5126	4.5	easy_par	-0.3542	n/a
331.00	4.5	1.1105	 0.05	hard_par	5	 5.037	1 week	7	0.00105	b	0	332.11	335.52	315	61	331.0011	4.5	hard_par	n/a	-0.5833
336.26	4.5	1.8093	 0.05	hard_par	5	 6.916	1 year	365	0.00105	y	1	338.07	340.78	320.25	62	336.262	4.5	hard_par	n/a	0.4167
341.51	4.5	1.8284	-0.01	hard_par	5	 5.594	4 months	120	0.00099	y	1	343.33	346.02	325.5	63	341.5062	4.5	hard_par	n/a	0.4167
346.77	4.5	1.9872	-0.05	hard_par	10	11.140	4 months	120	0.00095	y	1	348.75	351.28	330.75	64	346.7671	4.5	hard_par	n/a	0.4167
352.01	4.5	1.5577	-0.01	hard_par	10	10.208	3 weeks	21	0.00099	b	0	353.57	356.53	336	65	352.0114	4.5	hard_par	n/a	-0.5833
357.26	4.5	2.4412	-0.99	easy_par	5	 5.018	1 year	365	0.00001	b	0	359.70	361.77	341.25	66	357.2556	4.5	easy_par	-0.3542	n/a
362.52	4.5	2.4991	-0.95	easy_par	10	10.183	1 year	365	0.00005	y	1	365.02	367.03	346.5	67	362.5165	4.5	easy_par	0.6458	n/a
367.76	4.5	1.0230	-0.01	hard_par	5	 5.010	2 days	2	0.00099	b	0	368.78	372.27	351.75	68	367.7609	4.5	hard_par	n/a	-0.5833
373.01	4.5	1.9726	 0.01	hard_par	5	 5.035	1 week	7	0.00101	b	0	374.98	377.52	357	69	373.0051	4.5	hard_par	n/a	-0.5833
378.27	4.5	1.3272	-0.95	easy_par	5	 5.091	1 year	365	0.00005	y	1	379.59	382.78	362.25	70	378.2659	4.5	easy_par	0.6458	n/a
383.51	4.5	1.0252	-0.01	hard_par	5	 5.035	1 week	7	0.00099	b	0	384.54	388.02	367.5	71	383.5103	4.5	hard_par	n/a	-0.5833
388.75	4.5	2.1117	 1.90	easy_par	10	10.203	1 week	7	0.00290	b	0	390.87	393.27	372.75	72	388.7545	4.5	easy_par	-0.3542	n/a
394.02	4.5	1.7291	 0.01	hard_par	10	10.606	2 months	60	0.00101	y	1	395.74	398.53	378	73	394.0155	4.5	hard_par	n/a	0.4167
404.50	4.5	1.3752	-0.01	hard_par	10	10.020	2 days	2	0.00099	b	0	405.88	409.02	388.5	75	404.5039	4.5	hard_par	n/a	-0.5833
409.76	4.5	1.3663	 0.05	hard_par	10	10.630	2 months	60	0.00105	y	1	411.13	414.28	393.75	76	409.7648	4.5	hard_par	n/a	0.4167
415.01	4.5	1.4621	-0.99	easy_par	10	10.002	3 weeks	21	0.00001	b	0	416.47	419.52	399	77	415.0091	4.5	easy_par	-0.3542	n/a
420.25	4.5	1.6020	-0.99	easy_par	10	10.001	1 week	7	0.00001	b	0	421.86	424.77	404.25	78	420.2533	4.5	easy_par	-0.3542	n/a
425.51	4.5	1.4044	-0.05	hard_par	5	 5.570	4 months	120	0.00095	y	1	426.92	430.03	409.5	79	425.5143	4.5	hard_par	n/a	0.4167
430.76	4.5	1.2838	 0.05	hard_par	10	10.021	2 days	2	0.00105	b	0	432.04	435.27	414.75	80	430.7585	4.5	hard_par	n/a	-0.5833
436.00	4.5	1.7338	 2.00	easy_par	10	13.600	4 months	120	0.00300	y	1	437.74	440.52	420	81	436.0029	4.5	easy_par	0.6458	n/a
441.26	4.5	2.2586	 0.05	hard_par	10	10.073	1 week	7	0.00105	b	0	443.52	445.78	425.25	82	441.2637	4.5	hard_par	n/a	-0.5833
446.51	4.5	1.9804	 2.00	easy_par	10	10.060	2 days	2	0.00300	b	0	448.49	451.02	430.5	83	446.5079	4.5	easy_par	-0.3542	n/a
451.75	4.5	1.6234	-0.95	easy_par	10	10.001	2 days	2	0.00005	b	0	453.38	456.27	435.75	84	451.7522	4.5	easy_par	-0.3542	n/a
457.01	4.5	1.2840	 1.90	easy_par	10	10.058	2 days	2	0.00290	b	0	458.30	461.53	441	85	457.0131	4.5	easy_par	-0.3542	n/a
462.26	4.5	1.1444	 0.01	hard_par	5	 5.010	2 days	2	0.00101	b	0	463.40	466.77	446.25	86	462.2574	4.5	hard_par	n/a	-0.5833
467.50	4.5	2.0100	 0.01	hard_par	5	 6.843	1 year	365	0.00101	y	1	469.51	472.02	451.5	87	467.5016	4.5	hard_par	n/a	0.4167
478.01	4.5	1.7296	-0.01	hard_par	10	13.614	1 year	365	0.00099	y	1	479.74	482.52	462	89	478.0067	4.5	hard_par	n/a	0.4167
483.25	4.5	1.7417	 2.00	easy_par	5	 5.315	3 weeks	21	0.00300	b	0	484.99	487.77	467.25	90	483.2511	4.5	easy_par	-0.3542	n/a
488.51	4.5	1.3956	 0.01	hard_par	10	10.212	3 weeks	21	0.00101	b	0	489.91	493.03	472.5	91	488.5119	4.5	hard_par	n/a	-0.5833
493.76	4.5	1.2188	 2.00	easy_par	5	 5.030	2 days	2	0.00300	b	0	494.97	498.27	477.75	92	493.7561	4.5	easy_par	-0.3542	n/a
499.02	4.5	1.1267	-0.95	easy_par	5	 5.002	1 week	7	0.00005	b	0	500.14	503.53	483	93	499.017	4.5	easy_par	-0.3542	n/a
504.26	4.5	1.2288	-0.05	hard_par	10	10.067	1 week	7	0.00095	b	0	505.49	508.78	488.25	94	504.2612	4.5	hard_par	n/a	-0.5833
509.51	4.5	1.1287	-0.05	hard_par	10	10.570	2 months	60	0.00095	y	1	510.63	514.02	493.5	95	509.5054	4.5	hard_par	n/a	0.4167
514.77	4.5	1.9482	 2.00	easy_par	10	11.800	2 months	60	0.00300	y	1	516.71	519.28	498.75	96	514.7664	4.5	easy_par	0.6458	n/a
520.01	4.5	2.0044	 2.00	easy_par	10	20.950	1 year	365	0.00300	y	1	522.02	524.52	504	97	520.0108	4.5	easy_par	0.6458	n/a
525.25	4.5	1.5202	 1.90	easy_par	5	 5.101	1 week	7	0.00290	y	1	526.78	529.77	509.25	98	525.2549	4.5	easy_par	0.6458	n/a
530.52	4.5	1.2114	-0.01	hard_par	5	 6.807	1 year	365	0.00099	y	1	531.73	535.03	514.5	99	530.5158	4.5	hard_par	n/a	0.4167
535.76	4.5	1.1672	 0.01	hard_par	10	13.687	1 year	365	0.00101	y	1	536.93	540.27	519.75	100	535.76	4.5	hard_par	n/a	0.4167
541.00	4.5	1.1231	-0.95	easy_par	5	 5.030	4 months	120	0.00005	b	0	542.13	545.52	525	101	541.0043	4.5	easy_par	-0.3542	n/a
551.51	4.5	1.1093	-0.05	hard_par	5	 5.010	2 days	2	0.00095	b	0	552.62	556.02	535.5	103	551.5096	4.5	hard_par	n/a	-0.5833
556.75	4.5	1.1257	 0.05	hard_par	5	 5.110	3 weeks	21	0.00105	b	0	557.88	561.27	540.75	104	556.7538	4.5	hard_par	n/a	-0.5833
