onset	duration	reaction_time	percent_off_trial	trial_type	immediate_amount	delayed_amount	delay_time_words	delay_time_days	k_this_trial	response_button	response_binarized	onset.plus.rt	onset.plus.stimdur	absolute_time	trialnum	onset_orig	duration_orig	trial_type_orig	easy_par_orig	hard_par_orig
 16.02	4.5	1.6798	-0.05	hard_par	10	 45.715	1 year	365	0.009785	y	1	 17.70	 20.53	0	1	16.0162	4.5	hard_par	n/a	0.5833
 21.26	4.5	1.2861	 1.90	easy_par	10	119.025	1 year	365	0.029870	y	1	 22.55	 25.77	5.25	2	21.2604	4.5	easy_par	0.6042	n/a
 26.50	4.5	1.3283	 0.05	hard_par	5	  5.108	2 days	2	0.010815	b	0	 27.83	 31.02	10.5	3	26.5047	4.5	hard_par	n/a	-0.4167
 37.01	4.5	1.6630	-0.99	easy_par	5	  5.062	4 months	120	0.000103	b	0	 38.67	 41.52	21	5	37.0099	4.5	easy_par	-0.3958	n/a
 42.25	4.5	1.4660	-0.99	easy_par	10	 10.002	2 days	2	0.000103	b	0	 43.72	 46.77	26.25	6	42.2541	4.5	easy_par	-0.3958	n/a
 47.52	4.5	1.0547	 0.01	hard_par	10	 10.728	1 week	7	0.010403	b	0	 48.57	 52.03	31.5	7	47.515	4.5	hard_par	n/a	-0.4167
 52.76	4.5	1.2424	 2.00	easy_par	5	 61.392	1 year	365	0.030900	y	1	 54.00	 57.27	36.75	8	52.7592	4.5	easy_par	0.6042	n/a
 58.00	4.5	2.5893	 1.90	easy_par	5	 13.961	2 months	60	0.029870	y	1	 60.59	 62.52	42	9	58.0034	4.5	easy_par	0.6042	n/a
 63.26	4.5	2.3870	 0.05	hard_par	5	  8.245	2 months	60	0.010815	b	0	 65.65	 67.78	47.25	10	63.2644	4.5	hard_par	n/a	-0.4167
 68.51	4.5	1.2031	-0.99	easy_par	5	  5.001	2 days	2	0.000103	b	0	 69.71	 73.02	52.5	11	68.5086	4.5	easy_par	-0.3958	n/a
 73.75	4.5	1.2241	-0.95	easy_par	10	 10.618	4 months	120	0.000515	b	0	 74.98	 78.27	57.75	12	73.7529	4.5	easy_par	-0.3958	n/a
 79.01	4.5	1.0743	 1.90	easy_par	10	 45.844	4 months	120	0.029870	y	1	 80.09	 83.53	63	13	79.0138	4.5	easy_par	0.6042	n/a
 84.26	4.5	1.7119	 0.05	hard_par	10	 12.271	3 weeks	21	0.010815	b	0	 85.97	 88.77	68.25	14	84.2582	4.5	hard_par	n/a	-0.4167
 89.50	4.5	1.6739	 1.90	easy_par	5	 22.922	4 months	120	0.029870	y	1	 91.18	 94.02	73.5	15	89.5023	4.5	easy_par	0.6042	n/a
 94.76	4.5	1.4367	-0.05	hard_par	5	  7.935	2 months	60	0.009785	y	1	 96.20	 99.28	78.75	16	94.7632	4.5	hard_par	n/a	0.5833
100.01	4.5	1.0245	 1.90	easy_par	5	 59.513	1 year	365	0.029870	y	1	101.03	104.52	84	17	100.0073	4.5	easy_par	0.6042	n/a
110.51	4.5	1.0956	 0.01	hard_par	5	  6.092	3 weeks	21	0.010403	b	0	111.61	115.03	94.5	19	110.5126	4.5	hard_par	n/a	-0.4167
115.76	4.5	1.1028	-0.05	hard_par	5	  5.342	1 week	7	0.009785	b	0	116.86	120.27	99.75	20	115.7568	4.5	hard_par	n/a	-0.4167
121.00	4.5	1.3592	 2.00	easy_par	5	 14.270	2 months	60	0.030900	y	1	122.36	125.52	105	21	121.0011	4.5	easy_par	0.6042	n/a
126.26	4.5	1.2100	-0.99	easy_par	10	 10.124	4 months	120	0.000103	b	0	127.47	130.78	110.25	22	126.262	4.5	easy_par	-0.3958	n/a
131.51	4.5	0.8849	 0.05	hard_par	10	 49.475	1 year	365	0.010815	y	1	132.39	136.02	115.5	23	131.5062	4.5	hard_par	n/a	0.5833
136.77	4.5	1.4361	 0.01	hard_par	5	 11.242	4 months	120	0.010403	b	0	138.20	141.28	120.75	24	136.7672	4.5	hard_par	n/a	-0.4167
142.01	4.5	1.0081	 2.00	easy_par	5	  6.082	1 week	7	0.030900	b	0	143.02	146.53	126	25	142.0113	4.5	easy_par	-0.3958	n/a
147.26	4.5	0.8491	-0.95	easy_par	5	  5.005	2 days	2	0.000515	b	0	148.10	151.77	131.25	26	147.2557	4.5	easy_par	-0.3958	n/a
152.52	4.5	1.6302	-0.95	easy_par	10	 10.108	3 weeks	21	0.000515	b	0	154.15	157.03	136.5	27	152.5166	4.5	easy_par	-0.3958	n/a
157.76	4.5	1.2953	 0.01	hard_par	5	  8.121	2 months	60	0.010403	b	0	159.06	162.27	141.75	28	157.7608	4.5	hard_par	n/a	-0.4167
163.01	4.5	0.8111	-0.99	easy_par	5	  5.011	3 weeks	21	0.000103	b	0	163.82	167.52	147	29	163.0051	4.5	easy_par	-0.3958	n/a
168.27	4.5	0.8879	-0.95	easy_par	5	  5.054	3 weeks	21	0.000515	b	0	169.15	172.78	152.25	30	168.266	4.5	easy_par	-0.3958	n/a
173.51	4.5	0.8261	-0.05	hard_par	10	 10.196	2 days	2	0.009785	b	0	174.34	178.02	157.5	31	173.5102	4.5	hard_par	n/a	-0.4167
184.02	4.5	0.8363	-0.01	hard_par	5	  6.071	3 weeks	21	0.010197	b	0	184.85	188.53	168	33	184.0154	4.5	hard_par	n/a	-0.4167
189.26	4.5	0.7334	-0.95	easy_par	5	  5.154	2 months	60	0.000515	b	0	189.99	193.77	173.25	34	189.2596	4.5	easy_par	-0.3958	n/a
194.50	4.5	0.6595	-0.99	easy_par	5	  5.031	2 months	60	0.000103	b	0	195.16	199.02	178.5	35	194.5038	4.5	easy_par	-0.3958	n/a
199.76	4.5	0.9969	 1.90	easy_par	5	  8.136	3 weeks	21	0.029870	b	0	200.76	204.28	183.75	36	199.7648	4.5	easy_par	-0.3958	n/a
205.01	4.5	1.3596	-0.01	hard_par	10	 22.236	4 months	120	0.010197	y	1	206.37	209.52	189	37	205.0091	4.5	hard_par	n/a	0.5833
210.25	4.5	0.7221	-0.01	hard_par	10	 10.714	1 week	7	0.010197	b	0	210.98	214.77	194.25	38	210.2532	4.5	hard_par	n/a	-0.4167
215.51	4.5	1.1676	 1.90	easy_par	10	 27.922	2 months	60	0.029870	y	1	216.68	220.03	199.5	39	215.5142	4.5	easy_par	0.6042	n/a
220.76	4.5	2.4894	 0.01	hard_par	10	 10.208	2 days	2	0.010403	b	0	223.25	225.27	204.75	40	220.7585	4.5	hard_par	n/a	-0.4167
226.00	4.5	1.3253	-0.05	hard_par	5	  6.027	3 weeks	21	0.009785	b	0	227.33	230.52	210	41	226.0028	4.5	hard_par	n/a	-0.4167
231.26	4.5	0.7482	-0.95	easy_par	10	 10.036	1 week	7	0.000515	b	0	232.01	235.78	215.25	42	231.2636	4.5	easy_par	-0.3958	n/a
236.51	4.5	1.5435	-0.01	hard_par	10	 16.118	2 months	60	0.010197	y	1	238.05	241.02	220.5	43	236.5079	4.5	hard_par	n/a	0.5833
241.75	4.5	1.3374	 1.90	easy_par	10	 16.273	3 weeks	21	0.029870	y	1	243.09	246.27	225.75	44	241.7522	4.5	easy_par	0.6042	n/a
247.01	4.5	1.0521	-0.99	easy_par	5	  5.004	1 week	7	0.000103	b	0	248.07	251.53	231	45	247.0131	4.5	easy_par	-0.3958	n/a
257.50	4.5	1.1002	 0.01	hard_par	10	 22.484	4 months	120	0.010403	y	1	258.60	262.02	241.5	47	257.5016	4.5	hard_par	n/a	0.5833
262.76	4.5	1.3915	-0.95	easy_par	10	 10.309	2 months	60	0.000515	b	0	264.15	267.28	246.75	48	262.7624	4.5	easy_par	-0.3958	n/a
268.01	4.5	0.9056	-0.99	easy_par	10	 10.376	1 year	365	0.000103	b	0	268.91	272.52	252	49	268.0068	4.5	easy_par	-0.3958	n/a
273.25	4.5	1.8445	 2.00	easy_par	10	 16.489	3 weeks	21	0.030900	y	1	275.10	277.77	257.25	50	273.2511	4.5	easy_par	0.6042	n/a
278.51	4.5	3.6752	-0.05	hard_par	10	 12.055	3 weeks	21	0.009785	y	1	282.19	283.03	262.5	51	278.5119	4.5	hard_par	n/a	0.5833
283.76	4.5	1.2850	 1.90	easy_par	5	  5.299	2 days	2	0.029870	y	1	285.04	288.27	267.75	52	283.7562	4.5	easy_par	0.6042	n/a
289.02	4.5	0.8950	-0.01	hard_par	5	  8.059	2 months	60	0.010197	y	1	289.91	293.53	273	53	289.017	4.5	hard_par	n/a	0.5833
294.26	4.5	0.7815	-0.05	hard_par	5	 22.858	1 year	365	0.009785	y	1	295.04	298.78	278.25	54	294.2612	4.5	hard_par	n/a	0.5833
299.51	4.5	1.3614	 0.05	hard_par	10	 22.978	4 months	120	0.010815	y	1	300.87	304.02	283.5	55	299.5055	4.5	hard_par	n/a	0.5833
304.77	4.5	1.9397	 2.00	easy_par	10	 12.163	1 week	7	0.030900	y	1	306.71	309.28	288.75	56	304.7664	4.5	easy_par	0.6042	n/a
310.01	4.5	1.3019	 0.05	hard_par	5	 11.489	4 months	120	0.010815	y	1	311.31	314.52	294	57	310.0107	4.5	hard_par	n/a	0.5833
315.25	4.5	0.8334	 2.00	easy_par	5	 23.540	4 months	120	0.030900	y	1	316.09	319.77	299.25	58	315.2549	4.5	easy_par	0.6042	n/a
320.52	4.5	1.4358	-0.99	easy_par	10	 10.062	2 months	60	0.000103	b	0	321.95	325.03	304.5	59	320.5159	4.5	easy_par	-0.3958	n/a
331.00	4.5	3.5338	 0.05	hard_par	5	  5.379	1 week	7	0.010815	b	0	334.54	335.52	315	61	331.0044	4.5	hard_par	n/a	-0.4167
336.27	4.5	1.1428	 0.05	hard_par	5	 24.737	1 year	365	0.010815	y	1	337.41	340.78	320.25	62	336.2653	4.5	hard_par	n/a	0.5833
341.51	4.5	2.3633	-0.01	hard_par	5	 11.118	4 months	120	0.010197	b	0	343.87	346.02	325.5	63	341.5095	4.5	hard_par	n/a	-0.4167
346.75	4.5	1.6780	-0.05	hard_par	10	 21.742	4 months	120	0.009785	y	1	348.43	351.27	330.75	64	346.7537	4.5	hard_par	n/a	0.5833
352.01	4.5	1.2842	-0.01	hard_par	10	 12.141	3 weeks	21	0.010197	b	0	353.30	356.53	336	65	352.0147	4.5	hard_par	n/a	-0.4167
357.26	4.5	0.7930	-0.99	easy_par	5	  5.188	1 year	365	0.000103	b	0	358.05	361.77	341.25	66	357.2589	4.5	easy_par	-0.3958	n/a
362.50	4.5	1.1870	-0.95	easy_par	10	 11.880	1 year	365	0.000515	b	0	363.69	367.02	346.5	67	362.5031	4.5	easy_par	-0.3958	n/a
367.76	4.5	0.9242	-0.01	hard_par	5	  5.102	2 days	2	0.010197	b	0	368.69	372.28	351.75	68	367.7641	4.5	hard_par	n/a	-0.4167
373.01	4.5	0.8496	 0.01	hard_par	5	  5.364	1 week	7	0.010403	b	0	373.86	377.52	357	69	373.0084	4.5	hard_par	n/a	-0.4167
378.25	4.5	0.5961	-0.95	easy_par	5	  5.940	1 year	365	0.000515	b	0	378.85	382.77	362.25	70	378.2526	4.5	easy_par	-0.3958	n/a
383.51	4.5	0.8174	-0.01	hard_par	5	  5.357	1 week	7	0.010197	b	0	384.33	388.03	367.5	71	383.5136	4.5	hard_par	n/a	-0.4167
388.76	4.5	1.2762	 1.90	easy_par	10	 12.091	1 week	7	0.029870	b	0	390.03	393.27	372.75	72	388.7578	4.5	easy_par	-0.3958	n/a
394.00	4.5	1.4404	 0.01	hard_par	10	 16.242	2 months	60	0.010403	y	1	395.44	398.52	378	73	394.0021	4.5	hard_par	n/a	0.5833
404.51	4.5	1.0702	-0.01	hard_par	10	 10.204	2 days	2	0.010197	b	0	405.58	409.02	388.5	75	404.5072	4.5	hard_par	n/a	-0.4167
409.75	4.5	1.5951	 0.05	hard_par	10	 16.489	2 months	60	0.010815	y	1	411.35	414.27	393.75	76	409.7514	4.5	hard_par	n/a	0.5833
415.01	4.5	0.7642	-0.99	easy_par	10	 10.022	3 weeks	21	0.000103	b	0	415.78	419.53	399	77	415.0123	4.5	easy_par	-0.3958	n/a
420.26	4.5	0.8660	-0.99	easy_par	10	 10.007	1 week	7	0.000103	b	0	421.12	424.77	404.25	78	420.2565	4.5	easy_par	-0.3958	n/a
425.50	4.5	2.0055	-0.05	hard_par	5	 10.871	4 months	120	0.009785	b	0	427.51	430.01	409.5	79	425.5008	4.5	hard_par	n/a	-0.4167
430.76	4.5	1.1899	 0.05	hard_par	10	 10.216	2 days	2	0.010815	b	0	431.95	435.28	414.75	80	430.7617	4.5	hard_par	n/a	-0.4167
436.01	4.5	1.5714	 2.00	easy_par	10	 47.080	4 months	120	0.030900	y	1	437.58	440.52	420	81	436.006	4.5	easy_par	0.6042	n/a
441.27	4.5	0.9890	 0.05	hard_par	10	 10.757	1 week	7	0.010815	b	0	442.26	445.78	425.25	82	441.2667	4.5	hard_par	n/a	-0.4167
446.51	4.5	2.8012	 2.00	easy_par	10	 10.618	2 days	2	0.030900	b	0	449.31	451.03	430.5	83	446.5112	4.5	easy_par	-0.3958	n/a
451.76	4.5	0.7179	-0.95	easy_par	10	 10.010	2 days	2	0.000515	b	0	452.47	456.27	435.75	84	451.7553	4.5	easy_par	-0.3958	n/a
457.02	4.5	0.8401	 1.90	easy_par	10	 10.597	2 days	2	0.029870	b	0	457.86	461.53	441	85	457.0163	4.5	easy_par	-0.3958	n/a
462.26	4.5	0.6914	 0.01	hard_par	5	  5.104	2 days	2	0.010403	b	0	462.95	466.77	446.25	86	462.2605	4.5	hard_par	n/a	-0.4167
467.50	4.5	0.9271	 0.01	hard_par	5	 23.985	1 year	365	0.010403	y	1	468.43	472.02	451.5	87	467.5047	4.5	hard_par	n/a	0.5833
478.01	4.5	1.1739	-0.01	hard_par	10	 47.219	1 year	365	0.010197	y	1	479.18	482.52	462	89	478.01	4.5	hard_par	n/a	0.5833
483.25	4.5	1.4817	 2.00	easy_par	5	  8.245	3 weeks	21	0.030900	y	1	484.74	487.77	467.25	90	483.2541	4.5	easy_par	0.6042	n/a
488.52	4.5	1.2474	 0.01	hard_par	10	 12.185	3 weeks	21	0.010403	b	0	489.76	493.03	472.5	91	488.5151	4.5	hard_par	n/a	-0.4167
493.76	4.5	0.8329	 2.00	easy_par	5	  5.309	2 days	2	0.030900	b	0	494.59	498.27	477.75	92	493.7593	4.5	easy_par	-0.3958	n/a
499.00	4.5	1.8233	-0.95	easy_par	5	  5.018	1 week	7	0.000515	y	1	500.83	503.52	483	93	499.0036	4.5	easy_par	0.6042	n/a
504.26	4.5	1.0552	-0.05	hard_par	10	 10.685	1 week	7	0.009785	b	0	505.32	508.78	488.25	94	504.2646	4.5	hard_par	n/a	-0.4167
509.51	4.5	1.4132	-0.05	hard_par	10	 15.871	2 months	60	0.009785	y	1	510.92	514.02	493.5	95	509.5088	4.5	hard_par	n/a	0.5833
514.75	4.5	0.8788	 2.00	easy_par	10	 28.540	2 months	60	0.030900	y	1	515.63	519.27	498.75	96	514.7531	4.5	easy_par	0.6042	n/a
520.01	4.5	1.1228	 2.00	easy_par	10	122.785	1 year	365	0.030900	y	1	521.14	524.53	504	97	520.0139	4.5	easy_par	0.6042	n/a
525.26	4.5	1.3585	 1.90	easy_par	5	  6.045	1 week	7	0.029870	y	1	526.62	529.77	509.25	98	525.2582	4.5	easy_par	0.6042	n/a
530.50	4.5	0.6096	-0.01	hard_par	5	 23.610	1 year	365	0.010197	y	1	531.11	535.02	514.5	99	530.5025	4.5	hard_par	n/a	0.5833
535.76	4.5	0.8140	 0.01	hard_par	10	 47.971	1 year	365	0.010403	y	1	536.58	540.28	519.75	100	535.7633	4.5	hard_par	n/a	0.5833
541.01	4.5	1.1864	-0.95	easy_par	5	  5.309	4 months	120	0.000515	b	0	542.19	545.52	525	101	541.0075	4.5	easy_par	-0.3958	n/a
551.51	4.5	0.7439	-0.05	hard_par	5	  5.098	2 days	2	0.009785	b	0	552.26	556.03	535.5	103	551.5128	4.5	hard_par	n/a	-0.4167
556.76	4.5	1.6106	 0.05	hard_par	5	  6.136	3 weeks	21	0.010815	b	0	558.37	561.27	540.75	104	556.7569	4.5	hard_par	n/a	-0.4167
